File: 02_Data/00_PilotTests/FilteredSignals_2Order_3.05e-04CutOff.csv
Time [s],Displacement [mm],Force [N]
19.2588,-8.68255e-05,2.59834
19.6104,0.00123406,3.64419
19.9619,0.00367713,4.31264
20.3135,0.0058849,4.94446
20.665,0.00830693,5.60694
21.0166,0.0105909,6.13805
21.3682,0.0129299,6.51844
21.7197,0.0152497,6.96057
22.0713,0.0177553,7.41476
22.4229,0.0200614,7.81158
22.7744,0.022363,8.33267
23.126,0.024718,8.6599
23.4775,0.027086,9.19524
23.8291,0.0294955,9.56457
24.1807,0.0317488,10.0296
24.5322,0.0340959,10.4705
24.8838,0.0365142,10.8475
25.2354,0.0386855,11.4013
25.5869,0.0411811,11.807
25.9385,0.0435736,12.2581
26.29,0.0458716,12.7373
26.6416,0.0481118,13.2355
26.9932,0.0505697,13.7489
27.3447,0.05287,14.2395
27.6963,0.0552259,14.6586
28.0479,0.0575245,15.1429
28.3994,0.0599287,15.6949
28.751,0.0624561,16.2218
29.1025,0.064657,16.7104
29.4541,0.0669662,17.1942
29.8057,0.0692975,17.7102
30.1572,0.0717302,18.2717
30.5088,0.0740775,18.822
30.8604,0.076383,19.2906
31.2119,0.07876,19.864
31.5635,0.0811003,20.3373
31.915,0.0834832,20.8275
32.2666,0.0858233,21.3772
32.6182,0.0880297,21.9135
32.9697,0.0904601,22.4578
33.3213,0.0929494,23.0756
33.6729,0.094888,23.5388
34.0244,0.0935298,22.8714
34.376,0.0911164,22.0746
34.7275,0.0887686,21.252
35.0791,0.0863603,20.58
35.4307,0.0841298,19.7742
35.7822,0.0818268,18.9861
36.1338,0.0793926,18.2418
36.4854,0.0771178,17.5198
36.8369,0.0747153,16.8013
37.1885,0.0723865,16.1533
37.54,0.0702038,15.4509
37.8916,0.0677716,14.6808
38.2432,0.0653913,14.0365
38.5947,0.0630126,13.3584
38.9463,0.0607158,12.6663
39.2979,0.0584324,11.9495
39.6494,0.0559454,11.2664
40.001,0.0536768,10.5349
40.3525,0.0513127,9.85225
40.7041,0.0490086,9.1761
41.0557,0.0466004,8.45426
41.4072,0.0442421,7.85545
41.7588,0.0419134,7.17966
42.1104,0.0396529,6.51102
42.4619,0.0371621,5.81896
42.8135,0.0348639,5.21056
43.165,0.0325776,4.57815
43.5166,0.0302325,4.0028
43.8682,0.0278823,3.32045
44.2197,0.0262166,2.99608
44.5713,0.0281319,3.72386
44.9229,0.0303994,4.59201
45.2744,0.0326779,5.30773
45.626,0.035083,6.03592
45.9775,0.0372699,6.7455
46.3291,0.0397106,7.49059
46.6807,0.0420772,8.1417
47.0322,0.0443079,8.81943
47.3838,0.0467197,9.5648
47.7354,0.0490674,10.2694
48.0869,0.0513718,10.8805
48.4385,0.0537153,11.5784
48.79,0.0561239,12.2877
49.1416,0.0584084,12.9805
49.4932,0.0608105,13.5821
49.8447,0.0630607,14.2172
50.1963,0.0654224,14.8642
50.5479,0.0678545,15.5368
50.8994,0.0701624,16.1263
51.251,0.0724598,16.6873
51.6025,0.0748684,17.429
51.9541,0.077222,18.0764
52.3057,0.0796244,18.6847
52.6572,0.08184,19.2779
53.0088,0.0841573,19.8765
53.3604,0.0866371,20.5098
53.7119,0.0889893,21.0862
54.0635,0.0890013,20.9614
54.415,0.086776,20.0763
54.7666,0.0844113,19.3904
55.1182,0.0820832,18.6331
55.4697,0.0797269,17.8341
55.8213,0.0774921,17.1377
56.1729,0.0751407,16.3496
56.5244,0.0727299,15.6775
56.876,0.0704422,14.9658
57.2275,0.0680065,14.2951
57.5791,0.0657433,13.621
57.9307,0.0634053,12.8963
58.2822,0.0610223,12.1132
58.6338,0.0586647,11.4384
58.9854,0.0564029,10.8335
59.3369,0.0541218,10.1281
59.6885,0.0516279,9.49688
60.04,0.0493363,8.77862
60.3916,0.0469377,8.05158
60.7432,0.0446983,7.36439
61.0947,0.0423391,6.71807
61.4463,0.0400306,6.07762
61.7979,0.0376135,5.40519
62.1494,0.0353136,4.76452
62.501,0.0328612,4.13783
62.8525,0.0305892,3.5624
63.2041,0.0281866,2.91813
63.5557,0.0279802,3.0757
63.9072,0.0302515,3.89906
64.2588,0.032581,4.65416
64.6104,0.0348454,5.49427
64.9619,0.0372363,6.13129
65.3135,0.0394561,6.904
65.665,0.0418589,7.64402
66.0166,0.0442585,8.32971
66.3682,0.0466053,9.01909
66.7197,0.0489596,9.66686
67.0713,0.0512647,10.3565
67.4229,0.0536356,11.1077
67.7744,0.0560072,11.7447
68.126,0.0582431,12.4087
68.4775,0.0606744,13.1048
68.8291,0.0629486,13.7717
69.1807,0.0653302,14.4412
69.5322,0.0677392,15.1027
69.8838,0.069999,15.6976
70.2354,0.0724422,16.4035
70.5869,0.0747922,17.0562
70.9385,0.0770427,17.6886
71.29,0.0794713,18.3553
71.6416,0.0817399,18.9606
71.9932,0.0840903,19.5251
72.3447,0.0864515,20.1354
72.6963,0.0886678,20.6707
73.0479,0.087261,20.1026
73.3994,0.08505,19.341
73.751,0.0827607,18.559
74.1025,0.0804946,17.7893
74.4541,0.0780996,17.0601
74.8057,0.0757276,16.3587
75.1572,0.073484,15.6611
75.5088,0.0710605,14.9768
75.8604,0.068659,14.2308
76.2119,0.0664282,13.481
76.5635,0.0640573,12.7821
76.915,0.0618082,12.1097
77.2666,0.0594427,11.3493
77.6182,0.0570309,10.6697
77.9697,0.0546746,10.0662
78.3213,0.0523064,9.41102
78.6729,0.0499711,8.65598
79.0244,0.0476884,7.99129
79.376,0.0453054,7.28845
79.7275,0.0428997,6.62878
80.0791,0.040502,5.94558
80.4307,0.0381809,5.32331
80.7822,0.0358942,4.64597
81.1338,0.0334952,4.03716
81.4854,0.0311595,3.4046
81.8369,0.0288849,2.73434
82.1885,0.0290872,3.15132
82.54,0.031494,3.9243
82.8916,0.0338772,4.727
83.2432,0.0361996,5.45437
83.5947,0.0384545,6.21625
83.9463,0.0408104,6.94005
84.2979,0.0430322,7.643
84.6494,0.0453923,8.31878
85.001,0.0477585,9.01467
85.3525,0.0501356,9.73005
85.7041,0.0524145,10.3687
86.0557,0.0547267,11.0748
86.4072,0.0572152,11.717
86.7588,0.0594627,12.4261
87.1104,0.061773,13.1012
87.4619,0.0641056,13.7691
87.8135,0.0664642,14.3911
88.165,0.0688528,15.072
88.5166,0.071244,15.7265
88.8682,0.0736192,16.3572
89.2197,0.0759424,17.03
89.5713,0.078299,17.6553
89.9229,0.0805874,18.3189
90.2744,0.0829753,18.9504
90.626,0.0852592,19.531
90.9775,0.0877772,20.1629
91.3291,0.0885287,20.2848
91.6807,0.0862889,19.5106
92.0322,0.0840496,18.7844
92.3838,0.0816895,17.976
92.7354,0.0793287,17.1793
93.0869,0.077042,16.4254
93.4385,0.0747324,15.7313
93.79,0.0723795,14.9282
94.1416,0.0699344,14.2455
94.4932,0.0677304,13.5876
94.8447,0.0653205,12.7665
95.1963,0.0629763,12.0931
95.5479,0.0605994,11.4156
95.8994,0.0583365,10.7468
96.251,0.056027,10.0016
96.6025,0.0535639,9.42697
96.9541,0.051158,8.73083
97.3057,0.0488658,7.97222
97.6572,0.0465405,7.31667
98.0088,0.0442013,6.61371
98.3604,0.0418642,5.93514
98.7119,0.0395978,5.28507
99.0635,0.0371831,4.66001
99.415,0.03485,3.99295
99.7666,0.0324757,3.35112
100.118,0.0300789,2.71972
100.47,0.0304893,2.92435
100.821,0.0328658,3.82769
101.173,0.0350419,4.64743
101.524,0.0374942,5.34321
101.876,0.0398652,6.04844
102.228,0.0421321,6.74024
102.579,0.0445415,7.46333
102.931,0.0468035,8.15565
103.282,0.049072,8.83987
103.634,0.0514627,9.65192
103.985,0.053795,10.2969
104.337,0.0561148,10.9536
104.688,0.0585106,11.6317
105.04,0.060859,12.3668
105.392,0.0631792,13.0579
105.743,0.0655212,13.7042
106.095,0.0679288,14.291
106.446,0.0702203,15.0341
106.798,0.072555,15.6752
107.149,0.0749476,16.3452
107.501,0.0772907,17.0256
107.853,0.0796586,17.7107
108.204,0.0818276,18.323
108.556,0.0842906,18.9385
108.907,0.0866488,19.5865
109.259,0.0890313,20.1614
109.61,0.0888445,19.9449
109.962,0.0866405,19.1923
110.313,0.0844117,18.4325
110.665,0.081955,17.6831
111.017,0.0796028,16.972
111.368,0.0773049,16.2217
111.72,0.0749449,15.4705
112.071,0.0726637,14.6741
112.423,0.0703729,13.9916
112.774,0.0680145,13.1986
113.126,0.0655984,12.4945
113.478,0.0632162,11.866
113.829,0.0609296,11.1809
114.181,0.0586316,10.4123
114.532,0.0562283,9.79149
114.884,0.0538683,9.18026
115.235,0.0516262,8.45825
115.587,0.0491333,7.74386
115.938,0.0467819,7.12011
116.29,0.0445064,6.42469
116.642,0.0422041,5.75225
116.993,0.0398356,5.11447
117.345,0.0374828,4.49482
117.696,0.0350425,3.83832
118.048,0.0326392,3.28029
118.399,0.0309815,2.85734
118.751,0.0327298,3.5134
119.103,0.0349511,4.33452
119.454,0.0373626,5.07019
119.806,0.0396161,5.74567
120.157,0.0419879,6.58809
120.509,0.0443368,7.28715
120.86,0.0466606,8.01745
121.212,0.0490126,8.71729
121.563,0.0513142,9.43109
121.915,0.0536624,10.1212
122.267,0.0560708,10.8354
122.618,0.0584297,11.5101
122.97,0.060834,12.1875
123.321,0.0629349,12.8765
123.673,0.0654563,13.5498
124.024,0.0677043,14.2402
124.376,0.0700999,14.8416
124.728,0.0724396,15.5509
125.079,0.07468,16.1562
125.431,0.0770798,16.7041
125.782,0.0794833,17.4127
126.134,0.0818104,18.0393
126.485,0.0841568,18.6424
126.837,0.08655,19.2754
127.188,0.0888861,19.9064
127.54,0.0905276,20.3156
127.892,0.0886743,19.6233
128.243,0.0863694,18.8367
128.595,0.0840969,18.0876
128.946,0.0816656,17.3899
129.298,0.0793408,16.5958
129.649,0.0770615,15.85
130.001,0.0747094,15.1443
130.353,0.0724307,14.459
130.704,0.0701096,13.6662
131.056,0.0677267,13.0016
131.407,0.0653825,12.3249
131.759,0.0629127,11.5771
132.11,0.060712,10.8925
132.462,0.0583631,10.1964
132.813,0.0560566,9.5356
133.165,0.0536641,8.8893
133.517,0.0513845,8.18454
133.868,0.0490371,7.49715
134.22,0.0465724,6.80091
134.571,0.0442497,6.10587
134.923,0.0419672,5.50068
135.274,0.0396265,4.80079
135.626,0.0372792,4.08366
135.978,0.0348873,3.49983
136.329,0.0325218,2.8906
136.681,0.0330266,3.1475
137.032,0.0351633,3.98309
137.384,0.0374303,4.71548
137.735,0.0397831,5.52521
138.087,0.0422234,6.23885
138.438,0.0444317,6.92463
138.79,0.0468851,7.61845
139.142,0.0490929,8.3844
139.493,0.0514518,9.12107
139.845,0.0538136,9.82707
140.196,0.0560989,10.5132
140.548,0.0584928,11.1587
140.899,0.0608588,11.8232
141.251,0.0631184,12.5638
141.603,0.0654799,13.2126
141.954,0.067862,13.8746
142.306,0.0701793,14.5831
142.657,0.0724939,15.2185
143.009,0.0748508,15.8965
143.36,0.0771936,16.5779
143.712,0.0795842,17.2089
144.063,0.0820211,17.9196
144.415,0.08431,18.5117
144.767,0.0867167,19.1138
145.118,0.0890017,19.7283
145.47,0.091492,20.388
145.821,0.0922496,20.5332
146.173,0.0900889,19.7501
146.524,0.0876963,18.9829
146.876,0.0854076,18.256
147.228,0.0830997,17.5103
147.579,0.0807489,16.7254
147.931,0.0785074,16.0204
148.282,0.0762819,15.3525
148.634,0.0737752,14.5725
148.985,0.0714463,13.8887
149.337,0.0689847,13.1449
149.688,0.0668046,12.5246
150.04,0.064457,11.8557
150.392,0.0620362,11.1834
150.743,0.0596403,10.4294
151.095,0.0573648,9.79683
151.446,0.055098,9.09582
151.798,0.0527225,8.43525
152.149,0.0504637,7.78404
152.501,0.0479725,7.00619
152.853,0.0456904,6.37541
153.204,0.0432766,5.67904
153.556,0.0409449,5.08443
153.907,0.0385814,4.48458
154.259,0.0362036,3.86382
154.61,0.0338604,3.23581
154.962,0.0323787,2.93366
155.313,0.0343205,3.70382
155.665,0.0366822,4.51985
156.017,0.0389786,5.24719
156.368,0.0413217,5.92218
156.72,0.0435889,6.71951
157.071,0.0459372,7.47746
157.423,0.0482627,8.12398
157.774,0.0506469,8.91045
158.126,0.0530463,9.63059
158.478,0.0553308,10.3712
158.829,0.0576879,11.026
159.181,0.0600029,11.6848
159.532,0.0624344,12.4197
159.884,0.0646391,13.1369
160.235,0.0670451,13.7751
160.587,0.0693211,14.4271
160.938,0.0717804,15.1264
161.29,0.0741241,15.8684
161.642,0.0763536,16.4942
161.993,0.0787465,17.1026
162.345,0.081166,17.7302
162.696,0.0833655,18.3622
163.048,0.0857698,19.0381
163.399,0.0881385,19.6773
163.751,0.0905478,20.2765
164.103,0.092891,20.8391
164.454,0.0935218,20.9202
164.806,0.0913851,20.1224
165.157,0.0890813,19.4271
165.509,0.0867762,18.6347
165.86,0.0844063,17.9186
166.212,0.0820404,17.1488
166.563,0.0798263,16.4301
166.915,0.0773935,15.6972
167.267,0.0750552,14.9374
167.618,0.0727819,14.2771
167.97,0.0704498,13.5721
168.321,0.0680824,12.869
168.673,0.0658023,12.1505
169.024,0.0633741,11.4287
169.376,0.0609897,10.746
169.728,0.0587099,9.97294
170.079,0.0563472,9.32687
170.431,0.0540172,8.70444
170.782,0.051599,8.00867
171.134,0.0492373,7.2743
171.485,0.0469229,6.66626
171.837,0.0445145,6.0356
172.188,0.0422642,5.35459
172.54,0.0398787,4.68687
172.892,0.0376159,4.0743
173.243,0.0351499,3.44142
173.595,0.0329905,2.79673
173.946,0.0341538,3.36639
174.298,0.0363052,4.21791
174.649,0.0386852,4.9179
175.001,0.0410304,5.63561
175.353,0.0433422,6.43076
175.704,0.0456562,7.12389
176.056,0.0480793,7.97468
176.407,0.0503734,8.59282
176.759,0.0527188,9.3481
177.11,0.0550189,10.0716
177.462,0.0573179,10.7956
177.813,0.0598116,11.3889
178.165,0.0620254,12.1373
178.517,0.0643796,12.8826
178.868,0.0666702,13.5026
179.22,0.0691307,14.1708
179.571,0.0714935,14.8149
179.923,0.0737933,15.4905
180.274,0.0761563,16.2476
180.626,0.0785371,16.8387
180.978,0.080831,17.4854
181.329,0.083127,18.1249
181.681,0.0855742,18.8032
182.032,0.0878411,19.4784
182.384,0.0902607,20.0863
182.735,0.0924906,20.6769
183.087,0.0916153,20.2541
183.438,0.0892123,19.4437
183.79,0.0869952,18.7124
184.142,0.0847487,17.9223
184.493,0.0822687,17.2391
184.845,0.0799179,16.4374
185.196,0.0777482,15.7531
185.548,0.0752703,15.0123
185.899,0.0729879,14.2788
186.251,0.0706243,13.5774
186.603,0.0682786,12.8736
186.954,0.0660047,12.1883
187.306,0.0636735,11.4978
187.657,0.0611293,10.8402
188.009,0.0588975,10.0537
188.36,0.0565856,9.40913
188.712,0.0542508,8.69913
189.063,0.0518279,8.03525
189.415,0.0495071,7.36838
189.767,0.0472571,6.70399
190.118,0.0448264,6.10768
190.47,0.0424793,5.44429
190.821,0.0400714,4.73652
191.173,0.037808,4.14501
191.524,0.0353679,3.45258
191.876,0.0333139,2.9106
192.228,0.0347482,3.46261
192.579,0.0369392,4.33758
192.931,0.0392754,5.03717
193.282,0.0416092,5.76441
193.634,0.0438731,6.47766
193.985,0.0462495,7.27387
194.337,0.0486186,8.06968
194.688,0.0509348,8.75382
195.04,0.053377,9.4939
195.392,0.0556879,10.2209
195.743,0.0580193,10.8771
196.095,0.0602555,11.5511
196.446,0.0626493,12.2693
196.798,0.0649975,12.8925
197.149,0.067368,13.5853
197.501,0.0696546,14.3577
197.853,0.0720725,14.9953
198.204,0.0743336,15.6432
198.556,0.0767759,16.3048
198.907,0.0790344,16.9016
199.259,0.081416,17.5862
199.61,0.0837605,18.228
199.962,0.0861916,18.8388
200.313,0.0885304,19.4496
200.665,0.0898344,19.7831
201.017,0.0879287,18.988
201.368,0.0856483,18.2692
201.72,0.0832908,17.5163
202.071,0.0810412,16.7574
202.423,0.078646,15.9469
202.774,0.0762819,15.2838
203.126,0.0740302,14.5042
203.478,0.0716033,13.6385
203.829,0.0693165,12.9774
204.181,0.0669042,12.2109
204.532,0.0645486,11.531
204.884,0.0622864,10.9135
205.235,0.0598789,10.2236
205.587,0.0575687,9.47493
205.938,0.0552669,8.81911
206.29,0.0527961,8.15366
206.642,0.0504732,7.41356
206.993,0.0482315,6.74956
207.345,0.0457962,6.07086
207.696,0.0434649,5.41328
208.048,0.0411663,4.76311
208.399,0.0387572,4.06842
208.751,0.0364733,3.5083
209.103,0.0340313,2.85205
209.454,0.0343188,3.08878
209.806,0.0366255,3.95435
210.157,0.0389602,4.75374
210.509,0.0412152,5.51096
210.86,0.0436781,6.15753
211.212,0.045961,6.96994
211.563,0.0483417,7.6929
211.915,0.0505901,8.40785
212.267,0.0530333,9.09672
212.618,0.0553472,9.73805
212.97,0.0577155,10.4796
213.321,0.0600787,11.112
213.673,0.0624079,11.85
214.024,0.0648151,12.5909
214.376,0.0671923,13.2154
214.728,0.0693759,13.9064
215.079,0.0718102,14.6207
215.431,0.0741709,15.3028
215.782,0.0765293,15.9701
216.134,0.0787631,16.7088
216.485,0.0811312,17.3365
216.837,0.0834851,17.9796
217.188,0.0846947,18.3605
217.54,0.0846409,18.2321
217.892,0.0846635,18.1261
218.243,0.0846233,18.1316
218.595,0.0846312,18.1238
218.946,0.0847129,18.0748
219.298,0.0846825,18.0842
219.649,0.0847692,18.0837
220.001,0.0846933,18.1003
220.353,0.0846781,18.0653
220.704,0.0847128,18.1219
221.056,0.0847451,18.0744
221.407,0.0847763,17.9943
221.759,0.0847487,17.9717
222.11,0.0847847,18.0225
222.462,0.0846908,17.9697
222.813,0.0848016,17.943
223.165,0.084804,17.9524
223.517,0.0847316,17.9103
223.868,0.0847302,17.9211
224.22,0.0847383,17.8866
224.571,0.0848187,17.9159
224.923,0.0847309,17.9263
225.274,0.0847662,17.9322
225.626,0.0847831,17.8418
225.978,0.0847989,17.8806
226.329,0.0847053,17.8936
226.681,0.0847339,17.8849
227.032,0.084865,17.8846
227.384,0.0848153,17.8223
227.735,0.0847885,17.8299
228.087,0.0848235,17.8582
228.438,0.0848418,17.7879
228.79,0.084731,17.7892
229.142,0.0847346,17.7684
229.493,0.0847813,17.8223
229.845,0.0848731,17.7977
230.196,0.0848217,17.8452
230.548,0.0847632,17.7923
230.899,0.0847858,17.7316
231.251,0.0847306,17.7863
231.603,0.0848016,17.7548
231.954,0.0847671,17.7286
232.306,0.0847343,17.7905
232.657,0.084859,17.6767
233.009,0.0849245,17.687
233.36,0.0848731,17.6664
233.712,0.0848173,17.5896
234.063,0.084828,17.6907
234.415,0.0848389,17.6616
234.767,0.084865,17.6591
235.118,0.0847766,17.6687
235.47,0.084899,17.6254
235.821,0.0847966,17.684
236.173,0.0847512,17.6009
236.524,0.0847551,17.6149
236.876,0.0848753,17.563
237.228,0.0848019,17.6004
237.579,0.0848694,17.6054
237.931,0.0849395,17.5911
238.282,0.0847358,17.6117
238.634,0.0848121,17.6763
238.985,0.0848,17.5726
239.337,0.0848998,17.5407
239.688,0.0848088,17.5612
240.04,0.0847638,17.5154
240.392,0.0848298,17.5532
240.743,0.0848333,17.5108
241.095,0.0848233,17.4615
241.446,0.0849824,17.5537
241.798,0.084868,17.4741
242.149,0.0848745,17.4981
242.501,0.0848201,17.5004
242.853,0.0849266,17.4298
243.204,0.084863,17.3949
243.556,0.0848757,17.517
243.907,0.0848187,17.4599
244.259,0.084752,17.4247
244.61,0.0847502,17.4258
244.962,0.0849227,17.4202
245.313,0.0848254,17.4506
245.665,0.0848316,17.4711
246.017,0.0849402,17.541
246.368,0.0848366,17.5059
246.72,0.0848251,17.5025
247.071,0.0848915,17.5003
247.423,0.0847826,17.4788
247.774,0.0847801,17.5164
248.126,0.0848815,17.5208
248.478,0.0848527,17.4982
248.829,0.0848883,17.4732
249.181,0.0848593,17.5203
249.532,0.0848646,17.5067
249.884,0.0848579,17.4718
250.235,0.0848301,17.5126
250.587,0.0848099,17.5195
250.938,0.0848668,17.4973
251.29,0.0848874,17.483
251.642,0.0847825,17.5275
251.993,0.0847674,17.3703
252.345,0.0848472,17.4386
252.696,0.0849179,17.4749
253.048,0.0847632,17.5126
253.399,0.0848178,17.389
253.751,0.0848163,17.425
254.103,0.0848025,17.4473
254.454,0.0847313,17.4297
254.806,0.0848973,17.4481
255.157,0.0848665,17.4939
255.509,0.0848236,17.48
255.86,0.0849368,17.4078
256.212,0.0848156,17.3968
256.563,0.0848544,17.3489
256.915,0.0849283,17.3863
257.267,0.084813,17.3515
257.618,0.0848514,17.3644
257.97,0.0848581,17.3643
258.321,0.084848,17.3619
258.673,0.0848883,17.4042
259.024,0.0848662,17.4291
259.376,0.0848272,17.4638
259.728,0.0848539,17.4291
260.079,0.084874,17.3934
260.431,0.0849386,17.3711
260.782,0.0849556,17.3579
261.134,0.0847647,17.316
261.485,0.0848075,17.3607
261.837,0.0848136,17.3654
262.188,0.0847801,17.3622
262.54,0.0848528,17.3269
262.892,0.0848105,17.3483
263.243,0.0848399,17.3137
263.595,0.0848969,17.3204
263.946,0.0848341,17.3354
264.298,0.08484,17.37
264.649,0.0847648,17.3915
265.001,0.084885,17.35
265.353,0.0849893,17.268
265.704,0.0848126,17.3355
266.056,0.0847933,17.3561
266.407,0.0848622,17.3276
266.759,0.0848975,17.351
267.11,0.0848761,17.3689
267.462,0.0849402,17.3724
267.813,0.0848374,17.3699
268.165,0.0849588,17.358
268.517,0.0848794,17.3916
268.868,0.0848877,17.3643
269.22,0.0848653,17.3891
269.571,0.0849032,17.3754
269.923,0.0848357,17.3316
270.274,0.0848279,17.4056
270.626,0.0848583,17.4468
270.978,0.0847323,17.3892
271.329,0.0849168,17.3768
271.681,0.0848139,17.3702
272.032,0.0848904,17.3992
272.384,0.0848312,17.3078
272.735,0.0849274,17.3457
273.087,0.0848665,17.3516
273.438,0.0848329,17.3758
273.79,0.0848848,17.4263
274.142,0.0847404,17.3928
274.493,0.0849012,17.3676
274.845,0.0848784,17.3651
275.196,0.0848415,17.3163
275.548,0.0848632,17.2851
275.899,0.0848715,17.2937
276.251,0.0847631,17.3122
276.603,0.0848473,17.27
276.954,0.0848463,17.298
277.306,0.0848479,17.3037
277.657,0.0848675,17.328
278.009,0.0849567,17.3199
278.36,0.0849295,17.3044
278.712,0.0848051,17.3413
279.063,0.0848251,17.37
279.415,0.0848183,17.3033
279.767,0.0848105,17.3584
280.118,0.0849245,17.3731
280.47,0.0849307,17.2893
280.821,0.084961,17.3591
281.173,0.084977,17.2663
281.524,0.0849042,17.308
281.876,0.0848554,17.3
282.228,0.0848925,17.3438
282.579,0.0849195,17.3014
282.931,0.0849204,17.3126
283.282,0.0849444,17.2972
283.634,0.0848826,17.2719
283.985,0.0848294,17.275
284.337,0.0848352,17.2921
284.688,0.0849272,17.3194
285.04,0.0848182,17.2417
285.392,0.0848799,17.2243
285.743,0.0849045,17.2282
286.095,0.0848519,17.1654
286.446,0.0848475,17.2474
286.798,0.0848712,17.1749
287.149,0.0848712,17.2086
287.501,0.0848296,17.2378
287.853,0.0849307,17.2114
288.204,0.084891,17.2315
288.556,0.0849099,17.1997
288.907,0.0849244,17.1905
289.259,0.0849425,17.161
289.61,0.0848803,17.2166
289.962,0.0848953,17.1734
290.313,0.084908,17.1603
290.665,0.0848151,17.2097
291.017,0.0847917,17.167
291.368,0.0847134,17.1894
291.72,0.0848073,17.1798
292.071,0.0848471,17.0837
292.423,0.0848929,17.1413
292.774,0.0848472,17.1665
293.126,0.0848642,17.1313
293.478,0.0848406,17.1536
293.829,0.0847521,17.1164
294.181,0.0848179,17.1177
294.532,0.0847916,17.061
294.884,0.0848486,17.0888
295.235,0.084844,16.9919
295.587,0.0848728,16.9978
295.938,0.0848557,16.9918
296.29,0.0848408,16.9692
296.642,0.0848413,17.006
296.993,0.0847802,17.0792
297.345,0.0847913,17.0704
297.696,0.0848687,17.0806
298.048,0.0848376,17.0762
298.399,0.0848206,17.0791
298.751,0.0847681,17.0302
299.103,0.0847866,17.0913
299.454,0.08472,17.0621
299.806,0.0848239,17.0652
300.157,0.0848254,17.0819
300.509,0.0848466,17.1106
300.86,0.0848658,17.0677
301.212,0.0849848,17.0661
301.563,0.0848911,17.0501
301.915,0.0848555,17.0001
302.267,0.0848059,17.0286
302.618,0.0848607,16.9979
302.97,0.0849364,17.0714
303.321,0.0849529,17.1391
303.673,0.0848169,17.0952
304.024,0.0849073,17.1363
304.376,0.0848259,17.0922
304.728,0.0849077,17.1299
305.079,0.084883,17.0891
305.431,0.0848574,17.1797
305.782,0.0847566,17.1734
306.134,0.0848865,17.119
306.485,0.0849057,17.1145
306.837,0.0847726,17.0643
307.188,0.0847764,17.0971
307.54,0.0848681,17.1478
307.892,0.084867,17.1669
308.243,0.0848326,17.1243
308.595,0.0849034,17.1673
308.946,0.0848307,17.2278
309.298,0.0848853,17.2191
309.649,0.0848093,17.1392
310.001,0.0848172,17.137
310.353,0.0849231,17.1429
310.704,0.0847953,17.1136
311.056,0.0848445,17.1665
311.407,0.0847453,17.1982
311.759,0.0848308,17.1829
312.11,0.0848342,17.2461
312.462,0.0848858,17.1657
312.813,0.0848942,17.1499
313.165,0.08476,17.1623
313.517,0.0848277,17.1184
313.868,0.084786,17.1198
314.22,0.0848458,17.0724
314.571,0.0848513,17.1185
314.923,0.0848531,17.1007
315.274,0.0848389,17.0885
315.626,0.0849388,17.0799
315.978,0.0849838,17.028
316.329,0.0848128,17.1468
316.681,0.0848559,17.1165
317.032,0.0848766,17.1087
317.384,0.0849022,17.0993
317.735,0.0847753,17.0549
318.087,0.0847397,17.0958
318.438,0.0848106,17.1367
318.79,0.0848591,17.0719
319.142,0.0848434,17.0599
319.493,0.0848431,17.0801
319.845,0.0849634,17.0819
320.196,0.0847944,17.0742
320.548,0.0848595,17.0831
320.899,0.084896,17.0692
321.251,0.08483,17.0435
321.603,0.0847756,17.0666
321.954,0.0848615,17.1062
322.306,0.0847935,17.0824
322.657,0.0848158,17.0698
323.009,0.0848786,17.0456
323.36,0.0848402,17.0774
323.712,0.0848138,17.0244
324.063,0.0848237,17.0065
324.415,0.0849144,17.1087
324.767,0.084886,17.0681
325.118,0.0848854,17.052
325.47,0.0848551,16.9961
325.821,0.0847513,16.9908
326.173,0.0847763,16.9592
326.524,0.0848236,16.97
326.876,0.0848015,16.9364
327.228,0.0848667,16.9298
327.579,0.0848596,16.8833
327.931,0.0848526,16.913
328.282,0.0849028,16.8892
328.634,0.0849321,16.8449
328.985,0.0849066,16.9339
329.337,0.0847902,16.9557
329.688,0.0848226,16.919
330.04,0.0847762,16.8928
330.392,0.0848691,16.8528
330.743,0.0849305,16.8184
331.095,0.0848657,16.8592
331.446,0.0848323,16.8593
331.798,0.0848147,16.7949
332.149,0.0847705,16.8943
332.501,0.0848476,16.8452
332.853,0.0847856,16.8415
333.204,0.0847778,16.8857
333.556,0.0848471,16.8971
333.907,0.0847831,16.9172
334.259,0.0848212,16.9459
334.61,0.0849534,16.8843
334.962,0.0848747,16.9451
335.313,0.0848717,16.9648
335.665,0.0848393,16.9953
336.017,0.0848204,16.9408
336.368,0.0849632,16.948
336.72,0.0847649,16.9224
337.071,0.0848176,16.9797
337.423,0.084876,16.9595
337.774,0.0848254,16.9559
338.126,0.0848311,16.9587
338.478,0.0848316,16.915
338.829,0.0848516,16.9018
339.181,0.084867,16.9287
339.532,0.0847846,16.9817
339.884,0.0848513,16.8855
340.235,0.0848291,16.8455
340.587,0.0848214,16.8228
340.938,0.0848481,16.8191
341.29,0.0848382,16.8585
341.642,0.0848516,16.9288
341.993,0.0849118,16.9403
342.345,0.084809,16.8728
342.696,0.0848672,16.8693
343.048,0.0848307,16.935
343.399,0.0847884,16.9388
343.751,0.0847661,16.9361
344.103,0.0848126,16.9023
344.454,0.0848749,16.8427
344.806,0.0847213,16.8334
345.157,0.0848366,16.7859
345.509,0.0847585,16.8155
345.86,0.0848396,16.7632
346.212,0.0848401,16.8295
346.563,0.0849062,16.7709
346.915,0.0848455,16.743
347.267,0.0849344,16.7153
347.618,0.0848501,16.7286
347.97,0.0849041,16.729
348.321,0.0848479,16.7422
348.673,0.0849498,16.6968
349.024,0.0848133,16.6451
349.376,0.0848269,16.6813
349.728,0.0848946,16.6594
350.079,0.0848305,16.639
350.431,0.0848377,16.6521
350.782,0.0848523,16.6627
351.134,0.084725,16.6978
351.485,0.0848354,16.7023
351.837,0.0848364,16.6236
352.188,0.0847846,16.6795
352.54,0.0847846,16.6482
352.892,0.0848602,16.6367
353.243,0.0848272,16.5972
353.595,0.084813,16.6055
353.946,0.0849234,16.5685
354.298,0.0849198,16.669
354.649,0.0849248,16.5975
355.001,0.0847898,16.6859
355.353,0.0848852,16.6265
355.704,0.0848534,16.6225
356.056,0.0848278,16.611
356.407,0.0848359,16.6574
356.759,0.0848976,16.6147
357.11,0.084928,16.6294
357.462,0.0848704,16.6543
357.813,0.0848914,16.6793
358.165,0.0849003,16.6522
358.517,0.0847796,16.5916
358.868,0.0848347,16.5536
359.22,0.0848249,16.5255
359.571,0.0847678,16.511
359.923,0.0848097,16.5948
360.274,0.0848578,16.607
360.626,0.0848235,16.623
360.978,0.0848442,16.5396
361.329,0.0848244,16.5114
361.681,0.0847837,16.5243
362.032,0.0848168,16.508
362.384,0.084746,16.5207
362.735,0.084887,16.5596
363.087,0.0848187,16.5332
363.438,0.0848792,16.5556
363.79,0.0848946,16.6297
364.142,0.0847432,16.5757
364.493,0.0848149,16.5866
364.845,0.0848569,16.5635
365.196,0.0847549,16.5971
365.548,0.0848499,16.569
365.899,0.0849016,16.5757
366.251,0.0847918,16.6458
366.603,0.0848567,16.6642
366.954,0.0847342,16.6427
367.306,0.0849155,16.6534
367.657,0.0848224,16.6691
368.009,0.0848911,16.6985
368.36,0.0848267,16.6803
368.712,0.0847557,16.6331
369.063,0.0848276,16.6325
369.415,0.0848975,16.6421
369.767,0.0848899,16.6424
370.118,0.0849124,16.6423
370.47,0.0848207,16.6605
370.821,0.0847841,16.7153
371.173,0.0847889,16.5676
371.524,0.08493,16.6514
371.876,0.0849117,16.6207
372.228,0.0848753,16.6192
372.579,0.0848881,16.6347
372.931,0.0848904,16.6298
373.282,0.0848204,16.5939
373.634,0.0848442,16.6158
373.985,0.0847858,16.5661
374.337,0.0848555,16.5509
374.688,0.0848742,16.5972
375.04,0.0848346,16.545
375.392,0.0848514,16.5532
375.743,0.0847897,16.5745
376.095,0.0849398,16.6267
376.446,0.084948,16.6284
376.798,0.0847391,16.6003
377.149,0.0847882,16.5865
377.501,0.0848957,16.5951
377.853,0.0849182,16.6431
378.204,0.0848184,16.6839
378.556,0.0848643,16.6841
378.907,0.0848196,16.6787
379.259,0.0848119,16.6648
379.61,0.0847821,16.6831
379.962,0.0848482,16.6756
380.313,0.0848637,16.6992
380.665,0.084873,16.7374
381.017,0.0848837,16.7309
381.368,0.0849509,16.7098
381.72,0.0848771,16.6951
382.071,0.0848589,16.7154
382.423,0.0847853,16.6688
382.774,0.0848157,16.6701
383.126,0.0847739,16.6644
383.478,0.0847873,16.6554
383.829,0.0848797,16.6232
384.181,0.0848614,16.6764
384.532,0.0848476,16.6456
384.884,0.0848454,16.6269
385.235,0.0848672,16.6076
385.587,0.0848822,16.599
385.938,0.0848438,16.6022
386.29,0.0848361,16.5608
386.642,0.0848326,16.5653
386.993,0.0848961,16.5509
387.345,0.084776,16.5594
387.696,0.0847933,16.5051
388.048,0.084903,16.5269
388.399,0.0848085,16.5436
388.751,0.0848078,16.5814
389.103,0.0847857,16.5221
389.454,0.0848726,16.5776
389.806,0.0849113,16.5781
390.157,0.0847929,16.6014
390.509,0.0848827,16.5637
390.86,0.0848724,16.6378
391.212,0.0848726,16.6344
391.563,0.0848492,16.592
391.915,0.0848759,16.5878
392.267,0.0847925,16.5965
392.618,0.0848899,16.6116
392.97,0.0848608,16.5817
393.321,0.084885,16.6549
393.673,0.0847495,16.6204
394.024,0.0848205,16.6064
394.376,0.0848159,16.608
394.728,0.0848525,16.6448
395.079,0.0848869,16.6516
395.431,0.0847981,16.6057
395.782,0.0848449,16.5862
396.134,0.0848246,16.5798
396.485,0.0847985,16.4999
396.837,0.0847488,16.4712
397.188,0.0848788,16.5306
397.54,0.0849042,16.5823
397.892,0.0848323,16.5384
398.243,0.0847912,16.4713
398.595,0.0848296,16.5175
398.946,0.0847959,16.5229
399.298,0.0847484,16.4884
399.649,0.0848373,16.5585
400.001,0.0847967,16.4827
400.353,0.0848666,16.4632
400.704,0.0848608,16.457
401.056,0.0848427,16.4082
401.407,0.0848029,16.4368
401.759,0.08477,16.4576
402.11,0.0848857,16.4251
402.462,0.084984,16.4229
402.813,0.0848234,16.4766
403.165,0.0848787,16.5115
403.517,0.0849087,16.484
403.868,0.0848067,16.4908
404.22,0.0848509,16.545
404.571,0.084969,16.5418
404.923,0.0848365,16.5121
405.274,0.0847643,16.4753
405.626,0.0848406,16.4901
405.978,0.0848298,16.4862
406.329,0.0848457,16.5724
406.681,0.0848354,16.5663
407.032,0.0847632,16.5736
407.384,0.0848447,16.6338
407.735,0.0847944,16.6252
408.087,0.0848226,16.6181
408.438,0.0850215,16.6306
408.79,0.0848863,16.6153
409.142,0.084859,16.5831
409.493,0.084881,16.5268
409.845,0.0847703,16.506
410.196,0.084892,16.5331
410.548,0.0848459,16.5726
410.899,0.0847855,16.4817
411.251,0.0848866,16.5245
411.603,0.0848237,16.5473
411.954,0.0848715,16.5503
412.306,0.0848079,16.5805
412.657,0.0848679,16.4858
413.009,0.0848608,16.517
413.36,0.0848933,16.5775
413.712,0.0848237,16.5511
414.063,0.0849799,16.5718
414.415,0.0848988,16.4999
414.767,0.0849208,16.558
415.118,0.0848613,16.4971
415.47,0.0849236,16.4858
415.821,0.0849118,16.5097
416.173,0.0848251,16.4764
416.524,0.0848314,16.4884
416.876,0.08484,16.5188
417.228,0.084829,16.5262
417.579,0.0848704,16.5054
417.931,0.0847788,16.4879
418.282,0.0847992,16.5478
418.634,0.0848944,16.5443
418.985,0.0848969,16.5826
419.337,0.0848226,16.6502
419.688,0.0848512,16.6015
420.04,0.0848744,16.6512
420.392,0.0848438,16.6448
420.743,0.0848338,16.6344
421.095,0.0848206,16.5984
421.446,0.0847816,16.579
421.798,0.0848547,16.5636
422.149,0.084832,16.5673
422.501,0.0847227,16.613
422.853,0.0846544,16.5836
423.204,0.0848415,16.5536
423.556,0.0847534,16.5258
423.907,0.0848386,16.5211
424.259,0.0848153,16.5228
424.61,0.084768,16.5469
424.962,0.0847326,16.4909
425.313,0.0848076,16.5501
425.665,0.0848169,16.5173
426.017,0.084857,16.5831
426.368,0.0848271,16.5585
426.72,0.0849098,16.5151
427.071,0.0849136,16.5102
427.423,0.0848045,16.495
427.774,0.0849112,16.4927
428.126,0.0848264,16.4606
428.478,0.0849307,16.5381
428.829,0.0849106,16.5286
429.181,0.0848308,16.5089
429.532,0.0848662,16.4601
429.884,0.0848147,16.4364
430.235,0.084817,16.5253
430.587,0.0849148,16.4653
430.938,0.0849176,16.4608
431.29,0.0849261,16.4411
431.642,0.084862,16.438
431.993,0.0848673,16.51
432.345,0.0848212,16.5094
432.696,0.0847757,16.5517
433.048,0.0848377,16.5257
433.399,0.0848737,16.5187
433.751,0.084896,16.5413
434.103,0.084805,16.4543
434.454,0.0848421,16.4764
434.806,0.0849403,16.4734
435.157,0.084854,16.4865
435.509,0.0849031,16.4358
435.86,0.0849072,16.4584
436.212,0.0847941,16.4843
436.563,0.0848643,16.4792
436.915,0.0849181,16.4314
437.267,0.0848311,16.4652
437.618,0.0849089,16.4232
437.97,0.0848734,16.3985
438.321,0.0848115,16.4211
438.673,0.0849147,16.4051
439.024,0.0849678,16.4486
439.376,0.0848233,16.4753
439.728,0.0849002,16.4828
440.079,0.0848482,16.4577
440.431,0.0848818,16.4697
440.782,0.0847724,16.4632
441.134,0.0848941,16.5378
441.485,0.0848646,16.5903
441.837,0.0847486,16.5387
442.188,0.0847956,16.5008
442.54,0.0847944,16.5241
442.892,0.0848453,16.501
443.243,0.084803,16.4486
443.595,0.0848527,16.5391
443.946,0.0849392,16.5647
444.298,0.0848406,16.5386
444.649,0.0848151,16.5336
445.001,0.0847334,16.5462
445.353,0.0848916,16.5327
445.704,0.0849654,16.5148
446.056,0.0848785,16.4641
446.407,0.0849193,16.4345
446.759,0.084855,16.4931
447.11,0.0848011,16.4928
447.462,0.0848232,16.4832
447.813,0.0847981,16.4876
448.165,0.0849237,16.4856
448.517,0.0848961,16.4885
448.868,0.0848278,16.5045
449.22,0.0848901,16.5074
449.571,0.0848238,16.5241
449.923,0.084822,16.5926
450.274,0.0848915,16.5858
450.626,0.0848086,16.5081
450.978,0.0848838,16.5651
451.329,0.084963,16.574
451.681,0.0848022,16.5502
452.032,0.0848337,16.5989
452.384,0.0848922,16.5865
452.735,0.0848342,16.5532
453.087,0.0848263,16.5417
453.438,0.0848211,16.5461
453.79,0.0848371,16.4931
454.142,0.0847976,16.558
454.493,0.084929,16.4676
454.845,0.0847974,16.5054
455.196,0.0847825,16.5384
455.548,0.0848308,16.5469
455.899,0.0849475,16.4852
456.251,0.0848361,16.5775
456.603,0.0849141,16.5394
456.954,0.0848238,16.5003
457.306,0.0832331,15.96
457.657,0.0810439,15.1651
458.009,0.0787099,14.3813
458.36,0.0763573,13.631
458.712,0.0739563,12.8495
459.063,0.0716954,12.1737
459.415,0.0693852,11.4927
459.767,0.0669797,10.6961
460.118,0.0646106,10.0378
460.47,0.0621917,9.29945
460.821,0.0598689,8.6856
461.173,0.057519,7.93843
461.524,0.0551792,7.28322
461.876,0.0527954,6.64735
462.228,0.0504505,5.95575
462.579,0.048144,5.26577
462.931,0.0458527,4.59584
463.282,0.0434254,3.94429
463.634,0.0411758,3.2941
463.985,0.0385766,2.67701
464.337,0.0380505,2.72144
464.688,0.0402359,3.53347
465.04,0.0425433,4.33588
465.392,0.0448739,5.02026
465.743,0.0473108,5.84457
466.095,0.049597,6.51302
466.446,0.051909,7.22992
466.798,0.054224,7.90421
467.149,0.056623,8.64131
467.501,0.0588937,9.36589
467.853,0.0612529,9.97525
468.204,0.0635692,10.6853
468.556,0.0659724,11.4807
468.907,0.0683603,12.2147
469.259,0.0706643,12.8527
469.61,0.0730259,13.5458
469.962,0.0753362,14.1595
470.313,0.0777155,14.8653
470.665,0.0800158,15.467
471.017,0.0823704,16.1754
471.368,0.0846495,16.961
471.72,0.0870608,17.5214
472.071,0.0894461,18.1478
472.423,0.0917551,18.8375
472.774,0.0940134,19.4402
473.126,0.0964049,20.0351
473.478,0.098729,20.6664
473.829,0.10112,21.2836
474.181,0.103406,21.9104
474.532,0.105842,22.5972
474.884,0.108105,23.205
475.235,0.110466,23.7299
475.587,0.112789,24.3772
475.938,0.115224,24.9958
476.29,0.117727,25.5851
476.642,0.119811,26.1968
476.993,0.12221,26.815
477.345,0.124577,27.3671
477.696,0.126895,28.0523
478.048,0.129278,28.7324
478.399,0.131582,29.3291
478.751,0.133992,29.8904
479.103,0.136281,30.4365
479.454,0.138641,31.0176
479.806,0.141033,31.6634
480.157,0.143386,32.1122
480.509,0.14566,32.6693
480.86,0.147989,33.2322
481.212,0.150448,33.7936
481.563,0.152876,34.4006
481.915,0.155046,34.9833
482.267,0.157396,35.5895
482.618,0.159793,36.0593
482.97,0.162074,36.6663
483.321,0.164378,37.2191
483.673,0.166724,37.8467
484.024,0.169073,38.3888
484.376,0.17145,38.8417
484.728,0.17377,39.427
485.079,0.176123,40.0409
485.431,0.17848,40.6153
485.782,0.180957,41.194
486.134,0.183234,41.6744
486.485,0.185562,42.2373
486.837,0.187858,42.8158
487.188,0.190281,43.3225
487.54,0.192608,43.9033
487.892,0.195034,44.4798
488.243,0.197328,44.9928
488.595,0.199768,45.5263
488.946,0.202072,46.0551
489.298,0.204354,46.6114
489.649,0.206824,47.1538
490.001,0.209061,47.6806
490.353,0.211359,48.2369
490.704,0.213741,48.736
491.056,0.216137,49.2699
491.407,0.218447,49.7957
491.759,0.22065,50.3297
492.11,0.223063,50.8334
492.462,0.225433,51.4483
492.813,0.227746,52.035
493.165,0.230099,52.4766
493.517,0.232422,52.963
493.868,0.234797,53.5869
494.22,0.237127,54.1039
494.571,0.239438,54.6329
494.923,0.24187,55.0904
495.274,0.244226,55.6051
495.626,0.246497,56.0676
495.978,0.248876,56.6079
496.329,0.251196,57.1283
496.681,0.253571,57.607
497.032,0.25592,58.0875
497.384,0.258307,58.6258
497.735,0.260605,58.9911
498.087,0.262997,59.4961
498.438,0.265322,59.9992
498.79,0.267562,60.5021
499.142,0.269924,61.0049
499.493,0.272231,61.4096
499.845,0.274672,61.9646
500.196,0.276955,62.349
500.548,0.279394,62.872
500.899,0.281767,63.3206
501.251,0.284106,63.7699
501.603,0.286414,64.2566
501.954,0.28872,64.6738
502.306,0.291088,65.1257
502.657,0.293475,65.5872
503.009,0.295801,65.9152
503.36,0.298096,66.3002
503.712,0.300573,66.7892
504.063,0.302782,67.1913
504.415,0.305066,67.5895
504.767,0.307531,67.944
505.118,0.309863,68.3281
505.47,0.312135,68.7127
505.821,0.314568,69.1094
506.173,0.316885,69.4205
506.524,0.319331,69.7606
506.876,0.321484,70.0076
507.228,0.323981,70.2908
507.579,0.326276,70.6525
507.931,0.328566,70.8705
508.282,0.331059,71.1199
508.634,0.333231,71.3855
508.985,0.335656,71.615
509.337,0.338024,71.8035
509.688,0.3403,72.0115
510.04,0.34267,72.1288
510.392,0.34505,72.2644
510.743,0.347375,72.4117
511.095,0.349747,72.5571
511.446,0.352075,72.6623
511.798,0.354396,72.6489
512.149,0.356713,72.7203
512.501,0.359107,72.824
512.853,0.361421,72.8859
513.204,0.363889,72.9146
513.556,0.366154,73.0029
513.907,0.368519,73.0543
514.259,0.37072,72.9182
514.61,0.373125,72.9605
514.962,0.375504,72.8896
515.313,0.37787,72.8845
515.665,0.380177,72.8761
516.017,0.382581,72.8006
516.368,0.384874,72.7473
516.72,0.387335,72.7311
517.071,0.389617,72.5968
517.423,0.391923,72.5138
517.774,0.394262,72.3631
518.126,0.396751,72.2786
518.478,0.398935,72.2157
518.829,0.401276,72.0673
519.181,0.403597,72.0164
519.532,0.405991,71.8196
519.884,0.408344,71.6881
520.235,0.410636,71.569
520.587,0.413081,71.4889
520.938,0.415401,71.3595
521.29,0.417769,71.1715
521.642,0.420035,71.0572
521.993,0.42242,70.9551
522.345,0.424786,70.8376
522.696,0.427175,70.6909
523.048,0.429469,70.6201
523.399,0.431872,70.5293
523.751,0.434114,70.3911
524.103,0.43649,70.2721
524.454,0.438894,70.2279
524.806,0.441083,70.1021
525.157,0.443562,70.0302
525.509,0.445853,69.9289
525.86,0.448256,69.7973
526.212,0.4507,69.7195
526.563,0.452987,69.5886
526.915,0.455252,69.4875
527.267,0.457665,69.3773
527.618,0.459988,69.2256
527.97,0.462265,69.0518
528.321,0.46469,68.9943
528.673,0.467058,68.9103
529.024,0.469268,68.7534
529.376,0.471679,68.6904
529.728,0.474029,68.6058
530.079,0.476354,68.4526
530.431,0.478658,68.304
530.782,0.481011,68.2658
531.134,0.48345,68.1698
531.485,0.485719,68.0212
531.837,0.488122,67.9508
532.188,0.490403,67.9012
532.54,0.49281,67.798
532.892,0.495146,67.6967
533.243,0.497481,67.626
533.595,0.499785,67.5567
533.946,0.50218,67.4722
534.298,0.504493,67.3013
534.649,0.506837,67.1487
535.001,0.509171,67.0619
535.353,0.511539,67.0037
535.704,0.51388,66.8911
536.056,0.516197,66.729
536.407,0.51857,66.5913
536.759,0.52086,66.5082
537.11,0.523294,66.3727
537.462,0.525537,66.3379
537.813,0.527904,66.1987
538.165,0.530314,66.0438
538.517,0.53258,65.8697
538.868,0.534989,65.8674
539.22,0.53735,65.7056
539.571,0.539574,65.646
539.923,0.541929,65.4931
540.274,0.544272,65.3618
540.626,0.546635,65.2091
540.978,0.548944,65.1425
541.329,0.551407,65.0251
541.681,0.553753,64.9449
542.032,0.555977,64.879
542.384,0.558455,64.7128
542.735,0.560782,64.6116
543.087,0.563111,64.5643
543.438,0.565386,64.4278
543.79,0.567738,64.3139
543.995,0.568399,64.1578